File: Papers/SAC105/output_xrd/Cu6Sn5_Extinction_peak.csv
H,K,L,Distance,2theta/TOF,Mult
2,-1,-2,3.4668,25.6968,4
1,-2,0,3.4561,25.7777,4
1,-2,-1,3.3076,26.9564,4
-1,0,3,3.246,27.4779,2
3,0,1,3.2459,27.4788,2
1,-2,1,3.2078,27.8116,4
3,0,-2,3.1522,28.3123,2
-2,1,-2,3.067,29.116,4
1,0,3,2.9849,29.9353,2
0,-1,3,2.9618,30.1743,4
-1,2,2,2.8839,31.0095,4
-2,-1,3,2.7703,32.3152,4
1,2,2,2.7546,32.5045,4
-3,0,-2,2.7186,32.9471,2
3,0,-3,2.6275,34.1238,2
3,2,0,2.5736,34.8611,4
-4,1,1,2.5617,35.0282,4
-3,-2,1,2.5574,35.089,4
4,-1,0,2.5536,35.143,4
-2,1,-3,2.4621,36.4941,4
-1,0,4,2.4541,36.6173,2
0,3,0,2.4293,37.0046,2
3,-2,1,2.4238,37.0916,4
-4,1,2,2.4074,37.3536,4
-4,1,-1,2.3871,37.6832,4
3,2,-2,2.384,37.734,4
0,3,-1,2.3569,38.1846,4
-1,2,-3,2.3091,39.0067,4
0,-1,4,2.3062,39.0577,4
-1,0,-4,2.2993,39.1797,2
-3,0,-3,2.254,40.0004,4
2,-1,-4,2.2443,40.1807,4
-2,3,0,2.219,40.6589,4
-5,0,1,2.2015,40.9966,2
2,-3,-1,2.1933,41.1568,4
-5,0,0,2.1811,41.3975,2
-3,2,-2,2.179,41.4393,4
0,3,-2,2.1731,41.557,4
4,-1,-3,2.1624,41.7722,4
-4,1,-2,2.138,42.2716,4
2,-3,1,2.1347,42.3401,4
-3,-2,3,2.1312,42.413,4
5,0,-2,2.1147,42.7601,2
-2,3,2,2.068,43.775,4
-5,0,-1,2.0619,43.9112,2
-1,2,4,2.0355,44.511,4
-2,-1,-4,2.0213,44.8406,4
2,3,2,1.9728,46.0054,4
1,0,-5,1.9675,46.1365,2
5,0,-3,1.9535,46.4865,2
-1,2,-4,1.9445,46.7143,4
0,-3,3,1.944,46.7271,4
3,2,3,1.9169,47.4278,4
-4,1,4,1.9023,47.8144,4
3,0,4,1.8914,48.1073,2
2,3,-3,1.8867,48.2348,4
5,0,2,1.8852,48.2756,2
-5,-2,1,1.8843,48.3001,4
0,1,5,1.8792,48.4396,4
4,-1,3,1.8791,48.4424,4
-3,-2,4,1.8715,48.6518,4
1,0,5,1.866,48.8045,2
2,-1,-5,1.8636,48.8715,4
-3,0,5,1.8358,49.6612,2
5,2,-2,1.829,49.8584,4
-4,3,1,1.8167,50.2193,4
4,3,0,1.8137,50.3081,4
-1,4,0,1.797,50.8087,4
-5,2,-1,1.7945,50.8846,4
6,-1,-1,1.7824,51.2549,4
2,-3,3,1.7801,51.326,4
1,4,-1,1.7751,51.4811,4
-6,1,0,1.7636,51.8416,4
5,0,-4,1.7633,51.8511,2
1,4,1,1.7592,51.981,4
4,3,-2,1.7591,51.9842,4
4,-3,1,1.7511,52.2395,4
6,1,-2,1.743,52.5008,4
-1,2,5,1.7313,52.883,4
-5,-2,3,1.7217,53.201,4
0,-3,4,1.7184,53.3112,4
2,-1,5,1.7008,53.9072,4
-1,-4,2,1.6996,53.9484,4
5,0,3,1.6934,54.162,2
2,-3,-4,1.6923,54.2001,4
-6,-1,-1,1.6917,54.2209,4
-3,-2,-4,1.6787,54.6757,4
5,-2,2,1.6744,54.8279,4
-1,4,-2,1.6719,54.9168,4
4,1,-5,1.6668,55.099,4
1,2,5,1.6609,55.3115,4
4,-3,-3,1.6564,55.4747,4
-6,1,3,1.6559,55.4929,4
4,1,4,1.6467,55.8299,4
4,3,2,1.6453,55.8816,4
1,0,-6,1.6401,56.0744,2
3,-2,-5,1.6395,56.0967,4
-3,4,0,1.6288,56.4982,4
3,-4,-1,1.6247,56.6536,4
-3,0,-5,1.6151,57.0211,2
2,3,4,1.5903,57.994,4
3,-4,1,1.5888,58.054,4
5,2,-4,1.5872,58.1181,4
-2,1,6,1.5841,58.2427,4
0,1,6,1.5821,58.3234,4
-3,-4,2,1.5774,58.5141,4
-7,0,1,1.5765,58.5507,2
3,0,-6,1.5726,58.7101,2
-1,0,-6,1.5686,58.8745,2
7,0,0,1.5579,59.3191,2
1,-4,3,1.5551,59.4367,4
-7,0,2,1.5544,59.4661,2
6,-1,-4,1.5405,60.0576,4
5,2,3,1.5357,60.2647,4
4,-3,-4,1.5304,60.4952,4
0,3,-5,1.5183,61.0284,4
3,-4,2,1.5135,61.2427,4
-5,0,-4,1.5124,61.2921,2
2,-3,-5,1.51,61.4,4
7,0,1,1.5028,61.7263,2
-3,-4,3,1.4972,61.9826,4
7,0,-3,1.4965,62.0148,2
1,-2,-6,1.4956,62.0562,4
3,2,5,1.4765,62.95,4
4,-1,-6,1.4669,63.4097,4
6,-3,-1,1.4658,63.4628,4
1,4,-4,1.4629,63.6034,4
2,1,6,1.4621,63.6422,4
6,-1,3,1.4607,63.7104,4
0,-5,0,1.4576,63.8619,2
-6,3,0,1.4553,63.9748,4
4,1,5,1.4502,64.2267,4
-5,-2,5,1.4469,64.3908,4
-3,2,6,1.4439,64.5407,4
6,3,-2,1.4437,64.5508,4
0,5,1,1.4414,64.6663,4
-1,-2,-6,1.4408,64.6965,4
7,2,0,1.4325,65.1175,4
-7,-2,2,1.4298,65.2557,4
-1,4,-4,1.428,65.3482,4
-7,0,-2,1.4217,65.6742,2
2,3,5,1.4194,65.7941,4
3,-4,3,1.4169,65.9249,4
-6,-1,5,1.4153,66.0089,4
6,-3,1,1.4141,66.0721,4
-7,0,4,1.4137,66.0932,2
-5,0,6,1.4083,66.3793,2
2,-5,0,1.4081,66.3899,4
-1,0,7,1.4053,66.5394,2
-5,4,1,1.4036,66.6304,4
3,0,6,1.4025,66.6895,2
-2,5,1,1.4015,66.7433,4
4,-3,-5,1.3995,66.8512,4
-5,4,0,1.3983,66.9161,4
5,2,4,1.3969,66.9921,4
0,5,2,1.3962,67.0301,4
-6,-3,3,1.393,67.2045,4
-7,-2,-1,1.3893,67.4074,4
4,-3,4,1.3876,67.5011,4
-2,-5,-1,1.3858,67.6006,4
7,-2,-3,1.3843,67.6837,4
5,4,-2,1.3803,67.9065,4
-2,-1,7,1.3734,68.2946,4
-3,0,7,1.3695,68.5161,2
2,-5,-2,1.3671,68.6531,4
5,4,1,1.3653,68.7563,4
0,1,7,1.3646,68.7965,4
-8,1,1,1.3553,69.3358,4
-1,0,-7,1.3524,69.5058,2
2,-3,-6,1.3495,69.6768,4
0,-3,-6,1.3482,69.7537,4
-8,-1,2,1.3447,69.9617,4
8,-1,0,1.3399,70.2492,4
2,-5,2,1.3385,70.3335,4
-1,4,5,1.3368,70.4362,4
6,-1,4,1.3362,70.4726,4
5,4,-3,1.3324,70.7036,4
0,-5,3,1.3293,70.8933,4
-7,0,-3,1.327,71.0347,2
-7,2,-2,1.3245,71.1892,4
6,3,-4,1.3222,71.3319,4
7,0,-5,1.3184,71.5691,2
-7,2,4,1.318,71.5942,4
5,-2,-6,1.3136,71.8712,4
3,4,4,1.3122,71.9599,4
-1,2,7,1.3112,72.0233,4
-2,5,3,1.3106,72.0615,4
5,4,2,1.3101,72.0933,4
-8,-1,3,1.3099,72.106,4
-3,2,-6,1.3089,72.1698,4
-1,-4,-5,1.3036,72.5097,4
-4,1,7,1.3012,72.6648,4
-3,4,5,1.2932,73.187,4
-6,-1,6,1.2929,73.2067,4
4,-1,6,1.2874,73.5708,4
4,5,-1,1.2864,73.6374,4
-4,5,0,1.2854,73.7041,4
3,2,-7,1.282,73.9321,4
-2,-1,-7,1.2793,74.1142,4
-4,3,6,1.2748,74.42,4
-2,5,-3,1.2732,74.5294,4
2,-3,6,1.2716,74.6391,4
6,-3,3,1.2707,74.701,4
5,2,5,1.2679,74.8942,4
5,-4,-4,1.267,74.9566,4
4,-5,-2,1.2655,75.0608,4
4,-3,5,1.2638,75.1792,4
5,0,-7,1.2626,75.2631,2
4,5,1,1.2625,75.2701,4
8,-1,-4,1.2562,75.7139,4
0,-5,4,1.2501,76.1492,4
7,2,3,1.2469,76.3797,4
-8,-1,-2,1.2447,76.5391,4
-6,-3,5,1.2405,76.8455,4
5,-4,3,1.2404,76.8529,4
-2,-5,4,1.2399,76.8895,4
7,-2,-5,1.2398,76.8969,4
3,0,7,1.2361,77.1695,2
-7,0,-4,1.229,77.6986,2
9,0,-1,1.2257,77.9473,2
4,5,-3,1.2256,77.9549,4
4,-5,2,1.2211,78.297,4
-7,0,6,1.2204,78.3505,2
-6,-1,-5,1.2194,78.4271,4
1,-4,-6,1.2189,78.4655,4
-5,0,-6,1.2149,78.7739,2
2,-3,-7,1.212,78.9992,4
9,0,0,1.2117,79.0226,2
-2,1,8,1.21,79.1554,4
-3,0,8,1.2099,79.1632,2
-3,-4,-5,1.2086,79.2652,4
1,6,0,1.2072,79.3753,4
0,3,7,1.2059,79.4778,4
-1,-6,1,1.2004,79.915,4
8,-3,-1,1.1995,79.9871,4
0,1,8,1.199,80.0272,4
-2,-5,-4,1.1981,80.0994,4
-9,0,3,1.1967,80.2122,2
1,-6,1,1.1955,80.3091,4
7,-4,-1,1.1921,80.5851,4
3,-4,-6,1.1904,80.7239,4
8,-1,-5,1.1903,80.7321,4
8,3,0,1.1888,80.8551,4
-1,-4,-6,1.1887,80.8633,4
-1,0,-8,1.1882,80.9044,2
6,-3,4,1.1862,81.0692,4
-7,4,0,1.1841,81.2431,4
7,4,-2,1.1825,81.3762,4
-9,0,-1,1.1804,81.5516,2
6,1,-7,1.1798,81.6018,4
-8,-1,-3,1.1773,81.8121,4
1,6,-2,1.1763,81.8965,4
4,-5,-4,1.1718,82.2789,4
-3,2,-7,1.1706,82.3815,4
-8,3,3,1.1677,82.6308,4
1,-6,2,1.167,82.6913,4
4,5,3,1.1664,82.7431,4
-7,2,-4,1.1645,82.9079,4
4,-1,-8,1.1643,82.9253,4
-5,4,-4,1.1637,82.9775,4
-2,-5,5,1.1626,83.0734,4
-9,2,1,1.1617,83.1521,4
8,-3,1,1.1615,83.1696,4
7,4,1,1.1593,83.3627,4
9,0,-4,1.1576,83.5127,2
7,2,-6,1.1572,83.548,4
7,4,-3,1.1564,83.6189,4
-6,-3,6,1.1556,83.6898,4
4,-1,7,1.1529,83.9304,4
-5,-2,-6,1.1525,83.9662,4
-3,6,0,1.152,84.0109,4
4,-3,6,1.1516,84.0468,4
3,-6,-1,1.1506,84.1365,4
-9,-2,0,1.1498,84.2085,4
3,2,-8,1.1482,84.3529,4
2,-3,7,1.1458,84.5706,4
-6,-5,1,1.1421,84.9086,4
-5,0,8,1.1385,85.2406,2
3,-6,1,1.1376,85.324,4
-6,-5,0,1.1371,85.3705,4
9,2,-3,1.137,85.3798,4
2,-1,8,1.1356,85.5102,4
7,0,5,1.1341,85.6504,2
3,-6,-2,1.1334,85.716,4
-6,5,2,1.1315,85.8946,4
-1,-2,-8,1.1297,86.0647,4
-8,3,4,1.1291,86.1216,4
7,0,-7,1.1261,86.4072,2
-1,-6,-3,1.125,86.5125,4
-9,2,-1,1.123,86.7046,4
7,-4,2,1.1208,86.9172,4
-2,-5,-5,1.1197,87.0239,4
8,-1,-6,1.1187,87.1212,4
-6,5,-1,1.1171,87.2774,4
7,4,-4,1.1169,87.2969,4
-5,4,6,1.1142,87.5621,4
6,1,6,1.1137,87.6114,4
-1,-4,7,1.1128,87.7004,4
-3,4,-6,1.1114,87.8391,4
4,-5,-5,1.1098,87.9983,4
3,6,2,1.109,88.0781,4
9,0,-5,1.1074,88.2384,2
-6,5,3,1.1066,88.3187,4
8,-1,4,1.1053,88.4497,4
4,5,4,1.1039,88.5912,4
9,-2,-4,1.1032,88.6622,4
3,0,8,1.1031,88.6723,2
-3,6,3,1.1025,88.7333,4
-6,-3,-5,1.1022,88.7638,4
-5,0,-7,1.098,89.1935,2
-2,-3,8,1.0952,89.4828,4
1,0,-9,1.0918,89.837,2
-10,1,1,1.0902,90.0048,4
1,6,-4,1.0886,90.1733,4
-10,-1,2,1.0884,90.1945,4
0,-3,8,1.0871,90.3321,4
-5,-2,8,1.0867,90.3745,4
5,4,5,1.0859,90.4595,4
-6,-5,-2,1.0844,90.6194,4
9,-2,2,1.0842,90.6408,4
0,-5,-6,1.0838,90.6835,4
7,2,5,1.0829,90.78,4
9,0,3,1.0819,90.8874,2
-8,-3,5,1.0806,91.0275,4
2,1,-9,1.0802,91.0707,4
6,1,-8,1.0785,91.2549,4
7,2,-7,1.0758,91.5492,4
-1,6,-4,1.074,91.7467,4
-10,-1,3,1.0732,91.8348,4
7,4,3,1.0727,91.89,4
8,3,3,1.0708,92.1003,4
6,-5,-4,1.0701,92.1781,4
3,-6,3,1.0692,92.2784,4
0,1,9,1.0688,92.323,4
-7,-4,5,1.0681,92.4012,4
5,-6,-1,1.0635,92.9193,4
-3,6,4,1.0612,93.181,4
4,-3,-8,1.061,93.2038,4
9,-2,-5,1.0595,93.3755,4
1,0,9,1.0594,93.387,2
3,2,8,1.0558,93.8023,4
-10,-1,-1,1.0546,93.9418,4
-5,-6,2,1.0532,94.1051,4
-4,3,-7,1.0523,94.2104,4
-5,-2,-7,1.0513,94.3278,4
9,0,-6,1.0507,94.3984,2
-4,-1,9,1.0506,94.4102,4
-5,-6,-1,1.0465,94.8962,4
10,-1,-4,1.0464,94.9081,4
-7,0,-6,1.046,94.9559,2
-1,-2,9,1.0458,94.9798,4
-4,-5,6,1.0445,95.1355,4
2,-5,6,1.0427,95.3521,4
-6,5,-3,1.0422,95.4125,4
0,7,0,1.0411,95.5457,2
2,-3,8,1.0391,95.789,4
-7,0,8,1.0386,95.85,2
-4,5,-5,1.0384,95.8745,4
-5,-4,7,1.0378,95.9479,4
-9,-2,-3,1.0372,96.0215,4
0,7,1,1.0352,96.2678,4
-1,-6,5,1.0335,96.4783,4
-5,0,9,1.0332,96.5156,2
8,-1,5,1.0331,96.528,4
5,-6,-3,1.0315,96.7275,4
8,3,-6,1.0262,97.3954,4
6,-5,-5,1.0254,97.4972,4
9,0,4,1.0237,97.7144,2
3,-4,7,1.0229,97.817,4
2,-7,0,1.0226,97.8556,4
-6,-3,-6,1.0223,97.8942,4
-3,6,-4,1.022,97.9328,4
-5,-6,-2,1.021,98.0619,4
-10,-1,-2,1.0207,98.1007,4
-2,-7,1,1.0201,98.1784,4
-1,4,8,1.0188,98.3472,4
0,7,2,1.018,98.4515,4
-1,-6,-5,1.0179,98.4646,4
1,2,9,1.0173,98.543,4
-9,4,1,1.0169,98.5954,4
-8,3,-4,1.0157,98.7529,4
2,7,1,1.014,98.9771,4
9,-4,-2,1.0139,98.9903,4